"workerid","condition","trialnum","type","stimulus","number","matchingnumber","ssc","judgment","response","correct","questionRT","word0RT","word1RT","word2RT","word3RT","word4RT","word5RT","word6RT","word7RT","word8RT","word9RT","word10RT","word11RT","word12RT","word13RT","word14RT","word15RT","word16RT","criticalword","criticalwordRT","hand","instr","langPref","language","lang05","gender","age","handedness","education","comments","countryParents","residence","country"
0,2,1,1,"Los profesores son severos y el decano son severos tambien, entonces no nos preocupamos.","pl-sg",0,0,"ungrammatical","SI, la frase suena bien",0,610.465,148.625,150.185,137.265,135.23,187.7,687.935,305.515,332.72,171.07,180.085,308.145,150.09,308.03,188.73,NA,NA,NA,"tambien",180.085,"right","yes","spanish","spanish","spanish","Male",25,"right","college",NA,"Mexico","USA","Mexico"
0,2,3,1,"El profesor es severo y los decanos es severo tambien, entonces no nos preocupamos.","sg-pl",0,1,"ungrammatical","NO, la frase no suena bien",1,327,127.135,129.44,124.92,124.1,192.175,148.745,120.275,146.53,129.375,150.095,129.865,133.07,150.34,142.645,NA,NA,NA,"tambien",150.095,"left","yes","spanish","spanish","spanish","Male",25,"right","college",NA,"Mexico","USA","Mexico"
0,2,4,2,"Los profesores son severos y el decano tambien, entonces no nos preocupamos.","pl-sg",0,0,"grammatical","SI, la frase suena bien",1,284.035,99.07,130.715,128.755,115.92,176.96,170.065,275.48,201.35,152.05,134.42,119.13,315.64,NA,NA,NA,NA,NA,"tambien",201.35,"right","yes","spanish","spanish","spanish","Male",25,"right","college",NA,"Mexico","USA","Mexico"
0,2,5,2,"El profesor es severo y el decano tambien, entonces no nos preocupamos.","sg",1,0,"grammatical","NO, la frase no suena bien",0,157.93,169.7,141.87,167.455,167.92,274.17,181.05,169.82,173.155,176.085,197.635,189.845,194.425,NA,NA,NA,NA,NA,"tambien",173.155,"left","yes","spanish","spanish","spanish","Male",25,"right","college",NA,"Mexico","USA","Mexico"
0,2,6,1,"Los profesores son severos y los decanos son severos tambien, entonces no nos preocupamos.","pl",1,1,"grammatical","SI, la frase suena bien",1,283.44,159.28,163.84,171.045,190.965,179.35,152.095,210.345,212.795,166.885,302.735,226.485,88.795,178.445,167.86,NA,NA,NA,"tambien",302.735,"right","yes","spanish","spanish","spanish","Male",25,"right","college",NA,"Mexico","USA","Mexico"
0,2,8,1,"El profesor es severo y el decano es severo tambien, entonces no nos preocupamos.","sg",1,0,"grammatical","NO, la frase no suena bien",0,170.75,124.095,119.59,124.505,129.705,131.04,131.51,136.4,119.64,133.215,127.73,128.04,100.66,153.67,139.92,NA,NA,NA,"tambien",127.73,"right","yes","spanish","spanish","spanish","Male",25,"right","college",NA,"Mexico","USA","Mexico"
0,2,9,2,"Los profesores son severos y los decanos tambien, entonces no nos preocupamos.","pl",1,1,"grammatical","NO, la frase no suena bien",0,307.58,145.595,135.885,147.61,148.145,140.43,153.765,129.655,132.2,145.57,134.135,234,177.735,NA,NA,NA,NA,NA,"tambien",132.2,"left","yes","spanish","spanish","spanish","Male",25,"right","college",NA,"Mexico","USA","Mexico"
0,2,10,2,"El profesor es severo y los decanos tambien, entonces no nos preocupamos.","sg-pl",0,1,"grammatical","SI, la frase suena bien",1,196.155,147.59,138.98,143.59,130.445,133.605,142.065,126.25,125.57,119.665,127.955,112.975,136.29,NA,NA,NA,NA,NA,"tambien",125.57,"right","yes","spanish","spanish","spanish","Male",25,"right","college",NA,"Mexico","USA","Mexico"
1,28,1,1,"El ingeniero es europeo y los albaniles es europeo tambien, entonces el estilo de construccion sera europeo.","sg-pl",0,1,"ungrammatical","NO, la frase no suena bien",1,5449,302,272,257,247,264.995,247.005,233,255,705,223,248,279,256,273,264,312,2064,"tambien",223,"right","yes","english","english","mixed","Male",27,"right","some-grad",NA,"Honduras","Estados Unidos","Estados Unidos"
1,28,3,2,"El ingeniero es europeo y los albaniles tambien, entonces el estilo de construccion sera europeo.","sg-pl",0,1,"grammatical","SI, la frase suena bien",1,720,335,272,273,223,376,279,240,328,343,297,328,223,376,800,303,NA,NA,"tambien",328,"left","yes","english","english","mixed","Male",27,"right","some-grad",NA,"Honduras","Estados Unidos","Estados Unidos"
1,28,4,1,"Los ingenieros son europeos y los albaniles son europeos tambien, entonces el estilo de construccion sera europeo.","pl",1,1,"grammatical","SI, la frase suena bien",1,3720,359,345,320,224,296,256,361,295,247,512,320,272,232,263,247,281,278,"tambien",512,"left","yes","english","english","mixed","Male",27,"right","some-grad",NA,"Honduras","Estados Unidos","Estados Unidos"
1,28,5,2,"El ingeniero es europeo y el albanil tambien, entonces el estilo de construccion sera europeo.","sg",1,0,"grammatical","SI, la frase suena bien",1,1751,391,287,249,335,265,279,248,264,271,239,282,230,263,263,336,NA,NA,"tambien",264,"right","yes","english","english","mixed","Male",27,"right","some-grad",NA,"Honduras","Estados Unidos","Estados Unidos"
1,28,6,1,"Los ingenieros son europeos y el albanil son europeos tambien, entonces el estilo de construccion sera europeo.","pl-sg",0,0,"ungrammatical","NO, la frase no suena bien",1,1197,320,311,208,233,232,231,863,216,200,192,200,239,265,247,257,255,282,"tambien",192,"left","yes","english","english","mixed","Male",27,"right","some-grad",NA,"Honduras","Estados Unidos","Estados Unidos"
1,28,7,1,"El ingeniero es europeo y el albanil es europeo tambien, entonces el estilo de construccion sera europeo.","sg",1,0,"grammatical","SI, la frase suena bien",1,1208,248,248,231,256.005,288,240,176,344,216,272,256,272,280,272,1991,312,495,"tambien",272,"right","yes","english","english","mixed","Male",27,"right","some-grad",NA,"Honduras","Estados Unidos","Estados Unidos"
1,28,9,2,"Los ingenieros son europeos y los albaniles tambien, entonces el estilo de construccion sera europeo.","pl",1,1,"grammatical","SI, la frase suena bien",1,911,271,273,279,1065,279,215,281,222,289,288,215,273,256,328,280,NA,NA,"tambien",222,"right","yes","english","english","mixed","Male",27,"right","some-grad",NA,"Honduras","Estados Unidos","Estados Unidos"
1,28,10,2,"Los ingenieros son europeos y el albanil tambien, entonces el estilo de construccion sera europeo.","pl-sg",0,0,"grammatical","SI, la frase suena bien",1,1199,360,264,240,240,384,240,296,240,256,256,303,240.995,304.005,304,295,NA,NA,"tambien",240,"left","yes","english","english","mixed","Male",27,"right","some-grad",NA,"Honduras","Estados Unidos","Estados Unidos"
2,18,1,1,"Los gimnastas son disciplinados y el patinador son disciplinados tambien, por eso me gusta ver los entrenamientos.","pl-sg",0,0,"ungrammatical","NO, la frase no suena bien",1,1814,552,920,800.995,1246.005,551,726.995,583.005,871.995,343.005,414.995,296.005,255.995,247.005,248,248,247.995,464,"tambien",414.995,"left","yes","spanish","spanish","spanish","Male",23,"right","some-college",NA,"Venezuela","Venezuela","Venezuela"
2,18,2,2,"Los gimnastas son disciplinados y el patinador tambien, por eso me gusta ver los entrenamientos.","pl-sg",0,0,"grammatical","SI, la frase suena bien",1,1286,522.995,582,448.005,479.995,408.005,400,544,600,496,462.995,488,480,480,544,1351,NA,NA,"tambien",600,"right","yes","spanish","spanish","spanish","Male",23,"right","some-college",NA,"Venezuela","Venezuela","Venezuela"
2,18,3,1,"El gimnasta es disciplinado y el patinador es disciplinado tambien, por eso me gusta ver los entrenamientos.","sg",1,0,"grammatical","SI, la frase suena bien",1,1494.995,529,462,512,423.995,392,416.005,423.995,416.005,448,446.995,488.005,440,480,448,408,408,529,"tambien",446.995,"left","yes","spanish","spanish","spanish","Male",23,"right","some-college",NA,"Venezuela","Venezuela","Venezuela"
2,18,5,2,"El gimnasta es disciplinado y los patinadores tambien, por eso me gusta ver los entrenamientos.","sg-pl",0,1,"grammatical","SI, la frase suena bien",1,1280.005,575.995,519.005,416,375,357,336,664,455,626,445,393,416,392,376.995,607,NA,NA,"tambien",455,"left","yes","spanish","spanish","spanish","Male",23,"right","some-college",NA,"Venezuela","Venezuela","Venezuela"
2,18,6,1,"El gimnasta es disciplinado y los patinadores es disciplinado tambien, por eso me gusta ver los entrenamientos.","sg-pl",0,1,"ungrammatical","NO, la frase no suena bien",1,2469.995,393,414.995,400.005,407.005,328,384,368,583.995,215,224.005,215,239,240,256,255,249,221,"tambien",224.005,"left","yes","spanish","spanish","spanish","Male",23,"right","some-college",NA,"Venezuela","Venezuela","Venezuela"
2,18,8,1,"Los gimnastas son disciplinados y los patinadores son disciplinados tambien, por eso me gusta ver los entrenamientos.","pl",1,1,"grammatical","SI, la frase suena bien",1,1055,519,577,740,441.995,389.005,344,411,407.995,348,376,320,296,320,336.005,312,304,464,"tambien",376,"right","yes","spanish","spanish","spanish","Male",23,"right","some-college",NA,"Venezuela","Venezuela","Venezuela"
2,18,9,2,"Los gimnastas son disciplinados y los patinadores tambien, por eso me gusta ver los entrenamientos.","pl",1,1,"grammatical","SI, la frase suena bien",1,1174,425.005,439,408,600,377,454.005,80,863,416,311.995,304.005,295,415.995,359,1078.995,NA,NA,"tambien",863,"right","yes","spanish","spanish","spanish","Male",23,"right","some-college",NA,"Venezuela","Venezuela","Venezuela"
2,18,10,2,"El gimnasta es disciplinado y el patinador tambien, por eso me gusta ver los entrenamientos.","sg",1,0,"grammatical","SI, la frase suena bien",1,966,438,351,350.995,527,503,431.995,432.005,540.995,331,288.005,287,327,296,288,336,NA,NA,"tambien",540.995,"right","yes","spanish","spanish","spanish","Male",23,"right","some-college",NA,"Venezuela","Venezuela","Venezuela"
3,31,2,2,"Los intelectuales son cultos y los escritores tambien, asi que el periodista se sintio ignorante.","pl",1,1,"grammatical","SI, la frase suena bien",1,818.18,500.575,1025.99,670.27,687.65,529.365,485.85,614.605,631.58,555.03,429.89,425.14,594.19,570.735,575.835,1789.935,NA,NA,"tambien",631.58,"right","yes","depends","both","mixed","Female",27,"left","some-grad","Fue intersante. Muchas gracias por la oportunidad","Puerto Rico","Puerto Rico","Estados unidos"
3,31,3,1,"El intelectual es culto y el escritor es culto tambien, asi que el periodista se sintio ignorante.","sg",1,0,"grammatical","NO, la frase no suena bien",0,457.58,385.715,650.075,430.155,413.445,427.18,394.94,515.08,406.28,440.505,584.07,526.245,474.235,419.39,517.975,412.505,538.535,533.265,"tambien",584.07,"left","yes","depends","both","mixed","Female",27,"left","some-grad","Fue intersante. Muchas gracias por la oportunidad","Puerto Rico","Puerto Rico","Estados unidos"
3,31,4,2,"El intelectual es culto y el escritor tambien, asi que el periodista se sintio ignorante.","sg",1,0,"grammatical","NO, la frase no suena bien",0,482.625,416.69,548.77,474.995,1294.705,413.87,450.88,441.595,443.515,583.725,403.135,440.42,465,498.12,494.32,613.985,NA,NA,"tambien",443.515,"right","yes","depends","both","mixed","Female",27,"left","some-grad","Fue intersante. Muchas gracias por la oportunidad","Puerto Rico","Puerto Rico","Estados unidos"
3,31,5,2,"Los intelectuales son cultos y el escritor tambien, asi que el periodista se sintio ignorante.","pl-sg",0,0,"grammatical","SI, la frase suena bien",1,2616.18,40475.055,497.155,485.915,495.945,420.47,464.435,1377.95,415.8,440.925,418.135,340.82,386.24,445.865,481.065,524.105,NA,NA,"tambien",415.8,"left","yes","depends","both","mixed","Female",27,"left","some-grad","Fue intersante. Muchas gracias por la oportunidad","Puerto Rico","Puerto Rico","Estados unidos"
3,31,6,2,"El intelectual es culto y los escritores tambien, asi que el periodista se sintio ignorante.","sg-pl",0,1,"grammatical","SI, la frase suena bien",1,1550.88,386.455,489.96,664.715,438.995,418.74,395.08,407.205,464.63,258.185,350.285,341.96,349.595,374.925,343.64,395.75,NA,NA,"tambien",464.63,"left","yes","depends","both","mixed","Female",27,"left","some-grad","Fue intersante. Muchas gracias por la oportunidad","Puerto Rico","Puerto Rico","Estados unidos"
3,31,7,1,"El intelectual es culto y los escritores es culto tambien, asi que el periodista se sintio ignorante.","sg-pl",0,1,"ungrammatical","NO, la frase no suena bien",1,1568.48,287.355,325.19,345.46,338.785,345.56,342.15,353.27,323.855,358.32,382.575,301.025,313.685,288.835,296.915,298.135,240.8,384.57,"tambien",382.575,"left","yes","depends","both","mixed","Female",27,"left","some-grad","Fue intersante. Muchas gracias por la oportunidad","Puerto Rico","Puerto Rico","Estados unidos"
3,31,9,1,"Los intelectuales son cultos y el escritor son cultos tambien, asi que el periodista se sintio ignorante.","pl-sg",0,0,"ungrammatical","NO, la frase no suena bien",1,1356.495,395.805,590.275,408.515,560.55,385.765,489.785,755.73,643.82,416.23,420.075,512.77,301.595,244.11,213.39,191.75,341.92,385.57,"tambien",420.075,"right","yes","depends","both","mixed","Female",27,"left","some-grad","Fue intersante. Muchas gracias por la oportunidad","Puerto Rico","Puerto Rico","Estados unidos"
3,31,10,1,"Los intelectuales son cultos y los escritores son cultos tambien, asi que el periodista se sintio ignorante.","pl",1,1,"grammatical","SI, la frase suena bien",1,1336.74,376.12,407.985,465.35,416.46,437.735,513.51,552.155,496.215,465.42,458.715,422.23,402.59,347.12,363.54,395.04,385.69,504.12,"tambien",458.715,"left","yes","depends","both","mixed","Female",27,"left","some-grad","Fue intersante. Muchas gracias por la oportunidad","Puerto Rico","Puerto Rico","Estados unidos"
4,7,2,1,"Los cuidadores son carinosos y el paciente son carinosos tambien, por eso la relacion es buena.","pl-sg",0,0,"ungrammatical","NO, la frase no suena bien",1,705,431.995,503.005,1280.995,573,474,627,504.005,407.995,635.005,453.995,410,401,360.005,375,351,696,NA,"tambien",453.995,"right","yes","depends","spanish","spanish","Female",40,"right","some-college","muy bueno e interesante","mexico","USA","mexico"
4,7,3,2,"Los cuidadores son carinosos y el paciente tambien, por eso la relacion es buena.","pl-sg",0,0,"grammatical","SI, la frase suena bien",1,654,380.995,571,533,566.005,433.995,379.005,664.995,402,383.005,304.995,301.005,317.995,375,367,NA,NA,NA,"tambien",402,"left","yes","depends","spanish","spanish","Female",40,"right","some-college","muy bueno e interesante","mexico","USA","mexico"
4,7,4,2,"Los cuidadores son carinosos y los pacientes tambien, por eso la relacion es buena.","pl",1,1,"grammatical","SI, la frase suena bien",1,743,397.005,368.995,546,521.005,432.995,365.005,509.995,517,1154,313,299.005,312,266,441.995,NA,NA,NA,"tambien",517,"left","yes","depends","spanish","spanish","Female",40,"right","some-college","muy bueno e interesante","mexico","USA","mexico"
4,7,5,2,"El cuidador es carinoso y los pacientes tambien, por eso la relacion es buena.","sg-pl",0,1,"grammatical","SI, la frase suena bien",1,689.995,384,443.005,472,404.995,383,422,528,533,507.005,359.995,487.005,505.995,377.005,493,NA,NA,NA,"tambien",533,"left","yes","depends","spanish","spanish","Female",40,"right","some-college","muy bueno e interesante","mexico","USA","mexico"
4,7,6,1,"Los cuidadores son carinosos y los pacientes son carinosos tambien, por eso la relacion es buena.","pl",1,1,"grammatical","SI, la frase suena bien",1,907.005,440,761.995,398.005,602.995,376.005,417.995,516,527,610,613,364.005,303,719.995,413.005,311,408.995,NA,"tambien",613,"right","yes","depends","spanish","spanish","Female",40,"right","some-college","muy bueno e interesante","mexico","USA","mexico"
4,7,7,1,"El cuidador es carinoso y los pacientes es carinoso tambien, por eso la relacion es buena.","sg-pl",0,1,"ungrammatical","NO, la frase no suena bien",1,759,423.995,480,601,513.005,376.995,397.005,799.995,340,533.005,289.995,350.005,236.995,186,147,382.995,376,NA,"tambien",289.995,"left","yes","depends","spanish","spanish","Female",40,"right","some-college","muy bueno e interesante","mexico","USA","mexico"
4,7,8,1,"El cuidador es carinoso y el paciente es carinoso tambien, por eso la relacion es buena.","sg",1,0,"grammatical","SI, la frase suena bien",1,623,426.005,583.995,505.005,564.995,380.005,549.995,533.005,742.995,720.005,437,486.995,415.005,497,381.995,304,427,NA,"tambien",437,"left","yes","depends","spanish","spanish","Female",40,"right","some-college","muy bueno e interesante","mexico","USA","mexico"
4,7,10,2,"El cuidador es carinoso y el paciente tambien, por eso la relacion es buena.","sg",1,0,"grammatical","SI, la frase suena bien",1,748,705.005,874.005,517,384,538.995,653,487.005,766.005,490,357,272.995,314.005,330,471.995,NA,NA,NA,"tambien",766.005,"right","yes","depends","spanish","spanish","Female",40,"right","some-college","muy bueno e interesante","mexico","USA","mexico"
5,24,2,1,"El heroinomano es paranoico y el esquizofrenico es paranoico tambien, entonces la gente cercana se asusta a veces.","sg",1,0,"grammatical","SI, la frase suena bien",1,2268.225,422.77,470.765,945.065,509.095,414.175,378.65,587.435,397.775,466.595,389.015,454.385,417.195,428.065,396.87,441.03,473.82,681.175,"tambien",389.015,"left","yes","depends","espanol","spanish","Male",33,"left","some-college",NA,"venezuela","venezuela","venezuela"
5,24,3,1,"Los heroinomanos son paranoicos y el esquizofrenico son paranoicos tambien, entonces la gente cercana se asusta a veces.","pl-sg",0,0,"ungrammatical","NO, la frase no suena bien",1,955.01,372.8,879.59,438.93,599.35,429.47,374.41,616.93,400.66,634.605,730.05,497.94,406.035,303.91,367.875,397.745,427.455,400.065,"tambien",389.015,"right","yes","depends","espanol","spanish","Male",33,"left","some-college",NA,"venezuela","venezuela","venezuela"
5,24,4,2,"El heroinomano es paranoico y el esquizofrenico tambien, entonces la gente cercana se asusta a veces.","sg",1,0,"grammatical","SI, la frase suena bien",1,2829.23,457.07,419.575,432.7,495.775,350.83,359.45,550.74,446.4,530.795,452.58,407.995,405.745,457.405,394.555,465.9,467.76,NA,"tambien",446.4,"right","yes","depends","espanol","spanish","Male",33,"left","some-college",NA,"venezuela","venezuela","venezuela"
5,24,5,2,"Los heroinomanos son paranoicos y el esquizofrenico tambien, entonces la gente cercana se asusta a veces.","pl-sg",0,0,"grammatical","NO, la frase no suena bien",0,2430.995,389.04,429.785,444.32,471.345,867.845,373.95,504.855,456.795,664.135,425.09,405.815,321.08,387.14,345.36,350.33,308.115,NA,"tambien",456.795,"left","yes","depends","espanol","spanish","Male",33,"left","some-college",NA,"venezuela","venezuela","venezuela"
5,24,7,1,"Los heroinomanos son paranoicos y los esquizofrenicos son paranoicos tambien, entonces la gente cercana se asusta a veces.","pl",1,1,"grammatical","SI, la frase suena bien",1,1682.605,416.065,435.74,444.07,514.99,361.86,368.875,454.175,372.905,435.375,419.99,472.88,375.595,328.3,419.125,431.99,340.36,413.82,"tambien",419.99,"right","yes","depends","espanol","spanish","Male",33,"left","some-college",NA,"venezuela","venezuela","venezuela"
5,24,8,2,"Los heroinomanos son paranoicos y los esquizofrenicos tambien, entonces la gente cercana se asusta a veces.","pl",1,1,"grammatical","SI, la frase suena bien",1,1721.485,378.225,424.785,386.295,332.75,332.07,397.13,482.44,318.055,546.445,405.59,335.19,411.47,373.32,332.35,399.475,441.21,NA,"tambien",318.055,"right","yes","depends","espanol","spanish","Male",33,"left","some-college",NA,"venezuela","venezuela","venezuela"
5,24,9,2,"El heroinomano es paranoico y los esquizofrenicos tambien, entonces la gente cercana se asusta a veces.","sg-pl",0,1,"grammatical","SI, la frase suena bien",1,1306.445,373.03,335.03,313.23,381.23,337.715,324.42,451.71,531.535,405.135,408.22,362.285,293.315,461.415,398.82,329.305,334.99,NA,"tambien",531.535,"left","yes","depends","espanol","spanish","Male",33,"left","some-college",NA,"venezuela","venezuela","venezuela"
5,24,10,1,"El heroinomano es paranoico y los esquizofrenicos es paranoico tambien, entonces la gente cercana se asusta a veces.","sg-pl",0,1,"ungrammatical","NO, la frase no suena bien",1,1278.98,375.665,378.24,425.135,468.185,337.82,374.905,386.91,397.775,840.69,493.775,661.185,422.21,340.45,307.255,487.45,356.49,362.04,"tambien",493.775,"left","yes","depends","espanol","spanish","Male",33,"left","some-college",NA,"venezuela","venezuela","venezuela"
6,18,1,1,"Los gimnastas son disciplinados y el patinador son disciplinados tambien, por eso me gusta ver los entrenamientos.","pl-sg",0,0,"ungrammatical","NO, la frase no suena bien",1,404,592,1254,805.995,933.005,762,625.995,724.005,837.995,696.005,572,564.995,591,467,526.005,468.995,523,1327,"tambien",572,"right","yes","both","espanol","spanish","Female",22,"right","college","Me gusto mucho; sigan haciendo mas","venezuela","venezuela","venezuela"
6,18,2,1,"El gimnasta es disciplinado y el patinador es disciplinado tambien, por eso me gusta ver los entrenamientos.","sg",1,0,"grammatical","NO, la frase no suena bien",0,400.995,517.995,1100,490.005,548,479,447,545,469,488,495,470,394,477,373.005,549,571,779,"tambien",495,"right","yes","both","espanol","spanish","Female",22,"right","college","Me gusto mucho; sigan haciendo mas","venezuela","venezuela","venezuela"
6,18,3,2,"El gimnasta es disciplinado y los patinadores tambien, por eso me gusta ver los entrenamientos.","sg-pl",0,1,"grammatical","SI, la frase suena bien",1,392.005,436.005,441,423,517.995,717,471,459.005,477.995,2147.005,439,337,538.995,445.005,415,717.995,NA,NA,"tambien",477.995,"right","yes","both","espanol","spanish","Female",22,"right","college","Me gusto mucho; sigan haciendo mas","venezuela","venezuela","venezuela"
6,18,5,2,"Los gimnastas son disciplinados y los patinadores tambien, por eso me gusta ver los entrenamientos.","pl",1,1,"grammatical","SI, la frase suena bien",1,388,643,939.995,471,834.005,488.995,451,493.005,448.995,1013.005,702,558,490,442,431,1064,NA,NA,"tambien",448.995,"right","yes","both","espanol","spanish","Female",22,"right","college","Me gusto mucho; sigan haciendo mas","venezuela","venezuela","venezuela"
6,18,6,1,"Los gimnastas son disciplinados y los patinadores son disciplinados tambien, por eso me gusta ver los entrenamientos.","pl",1,1,"grammatical","NO, la frase no suena bien",0,465.005,560,477,508.005,860.995,387.005,349.995,2929.005,953,647.995,604,667,479,401.005,400,391.005,338,416.995,"tambien",647.995,"right","yes","both","espanol","spanish","Female",22,"right","college","Me gusto mucho; sigan haciendo mas","venezuela","venezuela","venezuela"
6,18,7,2,"El gimnasta es disciplinado y el patinador tambien, por eso me gusta ver los entrenamientos.","sg",1,0,"grammatical","SI, la frase suena bien",1,2298,464,494.005,522.995,945,368.005,380.995,364,605,495.005,427,356,356,353,420.995,385,NA,NA,"tambien",605,"right","yes","both","espanol","spanish","Female",22,"right","college","Me gusto mucho; sigan haciendo mas","venezuela","venezuela","venezuela"
6,18,8,2,"Los gimnastas son disciplinados y el patinador tambien, por eso me gusta ver los entrenamientos.","pl-sg",0,0,"grammatical","NO, la frase no suena bien",0,918.005,444,475.995,464.005,1729.995,469,431,481,1855.005,384.995,833.005,354,322.995,388.005,423,532,NA,NA,"tambien",1855.005,"left","yes","both","espanol","spanish","Female",22,"right","college","Me gusto mucho; sigan haciendo mas","venezuela","venezuela","venezuela"
6,18,9,1,"El gimnasta es disciplinado y los patinadores es disciplinado tambien, por eso me gusta ver los entrenamientos.","sg-pl",0,1,"ungrammatical","SI, la frase suena bien",0,847,445.995,554.005,574,504.995,338,350.995,654,674,963.005,729.995,999,361.005,318,349.995,393,344,613.005,"tambien",963.005,"left","yes","both","espanol","spanish","Female",22,"right","college","Me gusto mucho; sigan haciendo mas","venezuela","venezuela","venezuela"
7,3,1,1,"El empresario es simpatico y los empleados es simpatico tambien, por eso los clientes sonrien.","sg-pl",0,1,"ungrammatical","NO, la frase no suena bien",1,2725.495,621,914.995,466.36,820.8,525.215,658.19,1020.435,642.26,712.435,603.71,558.72,517.645,519.775,548.21,924.545,NA,NA,"tambien",603.71,"right","yes","depends","espanol y ingles","spanish","Male",29,"right","some-college",NA,"mexico","estados unidos","mexico"
7,3,2,1,"Los empresarios son simpaticos y el empleado son simpaticos tambien, por eso los clientes sonrien.","pl-sg",0,0,"ungrammatical","NO, la frase no suena bien",1,3277,606.5,715.305,505.31,642.53,469.85,609.525,928.73,411.55,893.57,612.29,498.09,638.365,577,463.055,651.715,NA,NA,"tambien",612.29,"right","yes","depends","espanol y ingles","spanish","Male",29,"right","some-college",NA,"mexico","estados unidos","mexico"
7,3,5,2,"El empresario es simpatico y el empleado tambien, por eso los clientes sonrien.","sg",1,0,"grammatical","SI, la frase suena bien",1,594.925,468.635,623.745,466.325,636.705,437.635,490.315,610.885,560.07,499.8,448.605,467.6,479.615,1904.59,NA,NA,NA,NA,"tambien",560.07,"right","yes","depends","espanol y ingles","spanish","Male",29,"right","some-college",NA,"mexico","estados unidos","mexico"
7,3,6,1,"El empresario es simpatico y el empleado es simpatico tambien, por eso los clientes sonrien.","sg",1,0,"grammatical","SI, la frase suena bien",1,1292.68,2408.47,725.785,383.425,512.185,426,322.145,600.78,440.245,580.15,469.37,433.65,481.39,424.715,521.07,856.42,NA,NA,"tambien",469.37,"left","yes","depends","espanol y ingles","spanish","Male",29,"right","some-college",NA,"mexico","estados unidos","mexico"
7,3,7,2,"Los empresarios son simpaticos y el empleado tambien, por eso los clientes sonrien.","pl-sg",0,0,"grammatical","SI, la frase suena bien",1,950.54,597.69,1255.88,528.635,561.93,349.14,423.735,499.425,693.055,392.785,339.725,439.005,542.78,1099.155,NA,NA,NA,NA,"tambien",693.055,"left","yes","depends","espanol y ingles","spanish","Male",29,"right","some-college",NA,"mexico","estados unidos","mexico"
7,3,8,1,"Los empresarios son simpaticos y los empleados son simpaticos tambien, por eso los clientes sonrien.","pl",1,1,"grammatical","SI, la frase suena bien",1,1711.03,376.93,523.74,504.97,455.5,440.415,365.895,558.525,396.585,451.365,460.85,467.25,392.62,384.595,458.865,712.3,NA,NA,"tambien",460.85,"right","yes","depends","espanol y ingles","spanish","Male",29,"right","some-college",NA,"mexico","estados unidos","mexico"
7,3,9,2,"El empresario es simpatico y los empleados tambien, por eso los clientes sonrien.","sg-pl",0,1,"grammatical","SI, la frase suena bien",1,3113.875,430.135,606.7,369.005,494.295,453.52,395.005,500.32,535.215,444.9,442.535,356.89,467.35,698.385,NA,NA,NA,NA,"tambien",535.215,"left","yes","depends","espanol y ingles","spanish","Male",29,"right","some-college",NA,"mexico","estados unidos","mexico"
7,3,10,2,"Los empresarios son simpaticos y los empleados tambien, por eso los clientes sonrien.","pl",1,1,"grammatical","SI, la frase suena bien",1,1658.915,1057.61,430.365,470.41,1641.35,388.26,322.07,332.72,436.55,380.255,328.28,322.905,327.435,438.165,NA,NA,NA,NA,"tambien",436.55,"right","yes","depends","espanol y ingles","spanish","Male",29,"right","some-college",NA,"mexico","estados unidos","mexico"
8,2,3,1,"El profesor es severo y el decano es severo tambien, entonces no nos preocupamos.","sg",1,0,"grammatical","SI, la frase suena bien",1,340.3,165.075,147.615,159.825,165.915,166.33,135.85,176.01,151.2,164.28,180.345,156.505,170.885,175.645,507.925,NA,NA,NA,"tambien",180.345,"left","yes","spanish","US","spanish","Male",NA,"right","hs",NA,"US","US","US"
8,2,4,1,"Los profesores son severos y el decano son severos tambien, entonces no nos preocupamos.","pl-sg",0,0,"ungrammatical","SI, la frase suena bien",0,340.705,162.215,172.685,172.485,170.64,171.055,183.115,180.41,116.395,203.185,158.045,181.71,169.16,211.73,805.745,NA,NA,NA,"tambien",158.045,"right","yes","spanish","US","spanish","Male",NA,"right","hs",NA,"US","US","US"
8,2,5,1,"Los profesores son severos y los decanos son severos tambien, entonces no nos preocupamos.","pl",1,1,"grammatical","NO, la frase no suena bien",0,354.81,178.53,161.79,191.86,149.85,166.445,175.73,170.585,205.915,149.695,194.125,194.9,180.47,196.28,617.475,NA,NA,NA,"tambien",194.125,"left","yes","spanish","US","spanish","Male",NA,"right","hs",NA,"US","US","US"
8,2,6,1,"El profesor es severo y los decanos es severo tambien, entonces no nos preocupamos.","sg-pl",0,1,"ungrammatical","SI, la frase suena bien",0,721.945,171.225,171.75,170.55,182.36,173.405,154.725,169.985,176.17,173.835,173.72,167.53,190.87,333.98,454.47,NA,NA,NA,"tambien",173.72,"left","yes","spanish","US","spanish","Male",NA,"right","hs",NA,"US","US","US"
8,2,7,2,"Los profesores son severos y el decano tambien, entonces no nos preocupamos.","pl-sg",0,0,"grammatical","SI, la frase suena bien",1,427.685,177.815,169.205,195.215,181.605,165.535,175.92,184.21,175.99,170.645,156.41,176.675,166.615,NA,NA,NA,NA,NA,"tambien",175.99,"right","yes","spanish","US","spanish","Male",NA,"right","hs",NA,"US","US","US"
8,2,8,2,"El profesor es severo y el decano tambien, entonces no nos preocupamos.","sg",1,0,"grammatical","NO, la frase no suena bien",0,399.975,174.02,159.51,183.135,166.1,177.215,187.135,351.88,191.48,177.7,198.925,188.97,180.08,NA,NA,NA,NA,NA,"tambien",191.48,"right","yes","spanish","US","spanish","Male",NA,"right","hs",NA,"US","US","US"
8,2,9,2,"Los profesores son severos y los decanos tambien, entonces no nos preocupamos.","pl",1,1,"grammatical","NO, la frase no suena bien",0,502.73,159.005,183.42,173.31,175.95,168.605,163.925,171.225,177.24,162.46,161.805,177.525,165.225,NA,NA,NA,NA,NA,"tambien",177.24,"left","yes","spanish","US","spanish","Male",NA,"right","hs",NA,"US","US","US"
8,2,10,2,"El profesor es severo y los decanos tambien, entonces no nos preocupamos.","sg-pl",0,1,"grammatical","NO, la frase no suena bien",0,337.205,185.85,161.5,198.035,160.695,161.735,183.845,152.225,197.16,188.89,153.41,169.385,827.11,NA,NA,NA,NA,NA,"tambien",197.16,"left","yes","spanish","US","spanish","Male",NA,"right","hs",NA,"US","US","US"
9,37,2,2,"Los ladrones son inteligentes y el complice tambien, por lo que sera dificil encontrar el dinero.","pl-sg",0,0,"grammatical","SI, la frase suena bien",1,2524.175,200.74,412.735,287.64,306.68,324.975,323.535,348.9,341.005,469.18,346.755,335.635,355.255,293.135,374.685,298.34,388.335,NA,"tambien",341.005,"left","yes","both","Espanol","spanish","Female",22,"left","college","Ningun comentario","Colombia","USA","USA"
9,37,3,1,"El ladron es inteligente y los complices es inteligente tambien, por lo que sera dificil encontrar el dinero.","sg-pl",0,1,"ungrammatical","NO, la frase no suena bien",1,1086.745,233.685,477.72,370.53,365.915,310.755,286.82,317.525,350.755,407.29,286,243.71,279,230.65,234.905,222.54,407.695,220.98,"tambien",286,"left","yes","both","Espanol","spanish","Female",22,"left","college","Ningun comentario","Colombia","USA","USA"
9,37,4,1,"El ladron es inteligente y el complice es inteligente tambien, por lo que sera dificil encontrar el dinero.","sg",1,0,"grammatical","SI, la frase suena bien",1,1171.395,180.505,259.805,262.515,269.935,269.41,251.475,225.115,239.735,260.335,244.06,513.63,204.885,258.405,305.81,296.6,248.8,342.685,"tambien",244.06,"left","yes","both","Espanol","spanish","Female",22,"left","college","Ningun comentario","Colombia","USA","USA"
9,37,5,2,"El ladron es inteligente y los complices tambien, por lo que sera dificil encontrar el dinero.","sg-pl",0,1,"grammatical","SI, la frase suena bien",1,6100.825,221.42,257.44,297.305,254.935,337.73,378.915,292.475,303.615,452.01,350.41,315.96,423.57,375.805,358.575,313.905,517.36,NA,"tambien",303.615,"right","yes","both","Espanol","spanish","Female",22,"left","college","Ningun comentario","Colombia","USA","USA"
9,37,6,2,"Los ladrones son inteligentes y los complices tambien, por lo que sera dificil encontrar el dinero.","pl",1,1,"grammatical","SI, la frase suena bien",1,1195.15,252.735,256.77,313.61,405.965,382.605,320.51,395.795,347.295,595.25,286.205,334.785,311.69,309.73,329.725,286.64,408.775,NA,"tambien",347.295,"right","yes","both","Espanol","spanish","Female",22,"left","college","Ningun comentario","Colombia","USA","USA"
9,37,7,1,"Los ladrones son inteligentes y el complice son inteligentes tambien, por lo que sera dificil encontrar el dinero.","pl-sg",0,0,"ungrammatical","NO, la frase no suena bien",1,1450.57,231.45,228.63,648.345,381.04,292,252.545,287.78,281.55,402.645,199.865,194.875,202.585,194.535,232.995,199.75,216.675,281.865,"tambien",199.865,"right","yes","both","Espanol","spanish","Female",22,"left","college","Ningun comentario","Colombia","USA","USA"
9,37,8,1,"Los ladrones son inteligentes y los complices son inteligentes tambien, por lo que sera dificil encontrar el dinero.","pl",1,1,"grammatical","SI, la frase suena bien",1,824.915,264.77,360.755,304.765,367.805,275.6,305.835,305.65,304.69,467.32,496.185,365.07,253.65,221.33,225.98,245.565,291.61,272.2,"tambien",496.185,"left","yes","both","Espanol","spanish","Female",22,"left","college","Ningun comentario","Colombia","USA","USA"
9,37,10,2,"El ladron es inteligente y el complice tambien, por lo que sera dificil encontrar el dinero.","sg",1,0,"grammatical","SI, la frase suena bien",1,768.9,305.005,311.045,323.21,281.985,293.81,306.7,341.705,322.715,399.775,321.68,310.73,312.87,342.335,363.985,270.055,448.755,NA,"tambien",322.715,"right","yes","both","Espanol","spanish","Female",22,"left","college","Ningun comentario","Colombia","USA","USA"
10,24,1,2,"El heroinomano es paranoico y los esquizofrenicos tambien, entonces la gente cercana se asusta a veces.","sg-pl",0,1,"grammatical","NO, la frase no suena bien",0,1215.005,232.005,174.995,183.005,174.995,180,177.005,159.995,171,175.005,184.995,160,185,343.005,298,336.995,420,NA,"tambien",171,"left","yes","english","English/Spanish","english","Male",27,"left","some-grad",NA,"USA","USA","USA"
10,24,2,1,"Los heroinomanos son paranoicos y los esquizofrenicos son paranoicos tambien, entonces la gente cercana se asusta a veces.","pl",1,1,"grammatical","NO, la frase no suena bien",0,2219.995,282,305.005,292.995,322,298,300.005,259.995,309.995,320.005,344.995,343.005,330,335,313,343,324.995,342,"tambien",344.995,"left","yes","english","English/Spanish","english","Male",27,"left","some-grad",NA,"USA","USA","USA"
10,24,3,1,"El heroinomano es paranoico y los esquizofrenicos es paranoico tambien, entonces la gente cercana se asusta a veces.","sg-pl",0,1,"ungrammatical","NO, la frase no suena bien",1,1140,291.995,192,178.005,174.995,245,338,360,390,397,343.005,356.995,333.005,336.995,321,348.005,337.995,370,"tambien",343.005,"right","yes","english","English/Spanish","english","Male",27,"left","some-grad",NA,"USA","USA","USA"
10,24,5,2,"Los heroinomanos son paranoicos y el esquizofrenico tambien, entonces la gente cercana se asusta a veces.","pl-sg",0,0,"grammatical","NO, la frase no suena bien",0,1658.005,428.005,295,421.995,345.005,375,358,315,362,390.005,415,437.995,385.005,384.995,425.005,358,799.995,NA,"tambien",362,"left","yes","english","English/Spanish","english","Male",27,"left","some-grad",NA,"USA","USA","USA"
10,24,6,1,"El heroinomano es paranoico y el esquizofrenico es paranoico tambien, entonces la gente cercana se asusta a veces.","sg",1,0,"grammatical","NO, la frase no suena bien",0,1122,400.005,520,403,372.995,370,360.005,344.995,300.005,299.995,298,302,315,295,301,290,290,296.995,"tambien",298,"right","yes","english","English/Spanish","english","Male",27,"left","some-grad",NA,"USA","USA","USA"
10,24,7,2,"El heroinomano es paranoico y el esquizofrenico tambien, entonces la gente cercana se asusta a veces.","sg",1,0,"grammatical","SI, la frase suena bien",1,1587.005,237.005,221.995,226.005,243.005,255,265.995,230,235.005,222.995,243.005,214.995,221,228,227,271.005,1350.995,NA,"tambien",235.005,"left","yes","english","English/Spanish","english","Male",27,"left","some-grad",NA,"USA","USA","USA"
10,24,9,1,"Los heroinomanos son paranoicos y el esquizofrenico son paranoicos tambien, entonces la gente cercana se asusta a veces.","pl-sg",0,0,"ungrammatical","SI, la frase suena bien",0,1541.995,333,322.005,350.995,296.005,288.995,271.005,284.995,237,266,340.005,322.995,291.005,252,281,313,282.995,318,"tambien",340.005,"left","yes","english","English/Spanish","english","Male",27,"left","some-grad",NA,"USA","USA","USA"
10,24,10,2,"Los heroinomanos son paranoicos y los esquizofrenicos tambien, entonces la gente cercana se asusta a veces.","pl",1,1,"grammatical","SI, la frase suena bien",1,1483,298,238.005,242.995,235,247.995,258.005,272.995,248,240,225.005,228,252.995,247.005,252.995,388.005,2157.995,NA,"tambien",248,"right","yes","english","English/Spanish","english","Male",27,"left","some-grad",NA,"USA","USA","USA"
11,9,2,1,"El cardiologo es sensato y el ginecologo es sensato tambien, asi que estoy tranquila.","sg",1,0,"grammatical","SI, la frase suena bien",1,1327.36,1808.085,1015.585,487.91,1615.68,503.83,400,937.01,591.235,679.2,511.79,575.81,511.88,576.03,831.645,NA,NA,NA,"tambien",511.79,"right","yes","depends","ingles","english","Male",32,"right","college",NA,"eeuu","eeuu","eeuu"
11,9,3,1,"Los cardiologos son sensatos y los ginecologos son sensatos tambien, asi que estoy tranquila.","pl",1,1,"grammatical","SI, la frase suena bien",1,3661.875,583.385,655.91,519.85,727.85,391.94,409.16,526.425,431.855,519.57,527.925,535.94,383.735,463.92,640.225,NA,NA,NA,"tambien",527.925,"left","yes","depends","ingles","english","Male",32,"right","college",NA,"eeuu","eeuu","eeuu"
11,9,4,2,"Los cardiologos son sensatos y el ginecologo tambien, asi que estoy tranquila.","pl-sg",0,0,"grammatical","SI, la frase suena bien",1,2007.655,831.845,592.255,471.445,543.845,407.545,479.935,631.895,479.93,471.85,376.02,343.79,919.98,NA,NA,NA,NA,NA,"tambien",479.93,"left","yes","depends","ingles","english","Male",32,"right","college",NA,"eeuu","eeuu","eeuu"
11,9,5,2,"Los cardiologos son sensatos y los ginecologos tambien, asi que estoy tranquila.","pl",1,1,"grammatical","NO, la frase no suena bien",0,1535.27,2528.715,782.81,495.795,1039.985,431.705,383.935,543.73,600.04,519.79,407.79,399.85,17031.595,NA,NA,NA,NA,NA,"tambien",600.04,"left","yes","depends","ingles","english","Male",32,"right","college",NA,"eeuu","eeuu","eeuu"
11,9,6,1,"Los cardiologos son sensatos y el ginecologo son sensatos tambien, asi que estoy tranquila.","pl-sg",0,0,"ungrammatical","NO, la frase no suena bien",1,1319.165,472.475,641.555,429.515,647.89,375.75,551.965,561.74,517.905,335.79,311.855,247.62,215.905,320.04,1303.75,NA,NA,NA,"tambien",311.855,"left","yes","depends","ingles","english","Male",32,"right","college",NA,"eeuu","eeuu","eeuu"
11,9,7,1,"El cardiologo es sensato y los ginecologos es sensato tambien, asi que estoy tranquila.","sg-pl",0,1,"ungrammatical","NO, la frase no suena bien",1,1718.715,471.67,3401.515,782.08,560.02,343.79,471.735,495.875,487.565,296.2,263.705,271.735,288.08,279.86,823.57,NA,NA,NA,"tambien",263.705,"left","yes","depends","ingles","english","Male",32,"right","college",NA,"eeuu","eeuu","eeuu"
11,9,8,2,"El cardiologo es sensato y el ginecologo tambien, asi que estoy tranquila.","sg",1,0,"grammatical","SI, la frase suena bien",1,4920.1,975.12,872.58,487.47,559.91,343.72,439.805,463.565,623.81,1103.935,319.815,383.97,24151.84,NA,NA,NA,NA,NA,"tambien",623.81,"left","yes","depends","ingles","english","Male",32,"right","college",NA,"eeuu","eeuu","eeuu"
11,9,10,2,"El cardiologo es sensato y los ginecologos tambien, asi que estoy tranquila.","sg-pl",0,1,"grammatical","SI, la frase suena bien",1,1535.185,432.27,639.925,599.885,535.705,527.96,431.705,495.815,561.125,430.565,327.905,441.07,502.41,NA,NA,NA,NA,NA,"tambien",561.125,"right","yes","depends","ingles","english","Male",32,"right","college",NA,"eeuu","eeuu","eeuu"
12,28,2,1,"El ingeniero es europeo y el albanil es europeo tambien, entonces el estilo de construccion sera europeo.","sg",1,0,"grammatical","SI, la frase suena bien",1,1326.205,671.685,735.795,471.365,863.785,495.65,791.68,1279.515,695.91,911.605,1063.85,983.74,1583.82,647.915,551.775,943.815,1327.72,1056.13,"tambien",1063.85,"right","yes","depends","espanol","spanish","Female",32,"right","college",NA,"cuba","estados unidos","estados unidos"
12,28,3,2,"Los ingenieros son europeos y el albanil tambien, entonces el estilo de construccion sera europeo.","pl-sg",0,0,"grammatical","SI, la frase suena bien",1,1574.45,655.865,767.84,424.37,887.085,727.76,519.93,799.835,807.77,855.83,544.715,630.98,351.81,1119.84,663.83,935.835,NA,NA,"tambien",807.77,"right","yes","depends","espanol","spanish","Female",32,"right","college",NA,"cuba","estados unidos","estados unidos"
12,28,4,2,"Los ingenieros son europeos y los albaniles tambien, entonces el estilo de construccion sera europeo.","pl",1,1,"grammatical","SI, la frase suena bien",1,1126.85,607.86,567.825,423.74,431.98,495.825,415.785,1039.935,727.77,487.83,520.395,663.245,352.275,919.68,343.46,743.875,NA,NA,"tambien",727.77,"right","yes","depends","espanol","spanish","Female",32,"right","college",NA,"cuba","estados unidos","estados unidos"
12,28,5,2,"El ingeniero es europeo y los albaniles tambien, entonces el estilo de construccion sera europeo.","sg-pl",0,1,"grammatical","NO, la frase no suena bien",0,1126.59,535.87,687.82,359.685,851.105,1505.95,442.505,683.025,661.39,447.11,535.82,375.87,415.855,1015.785,407.435,423.84,NA,NA,"tambien",661.39,"right","yes","depends","espanol","spanish","Female",32,"right","college",NA,"cuba","estados unidos","estados unidos"
12,28,6,1,"El ingeniero es europeo y los albaniles es europeo tambien, entonces el estilo de construccion sera europeo.","sg-pl",0,1,"ungrammatical","NO, la frase no suena bien",1,1956.68,375.875,479.77,303.855,911.85,399.845,1103.11,976.62,607.685,1607.86,2111.34,495.39,367.745,399.405,327.79,351.665,441.895,614.04,"tambien",2111.34,"left","yes","depends","espanol","spanish","Female",32,"right","college",NA,"cuba","estados unidos","estados unidos"
12,28,7,1,"Los ingenieros son europeos y los albaniles son europeos tambien, entonces el estilo de construccion sera europeo.","pl",1,1,"grammatical","SI, la frase suena bien",1,1078.56,447.81,327.725,415.875,351.84,471.745,343.905,360.035,543.725,591.745,503.825,711.835,383.855,383.795,351.81,367.67,423.91,335.7,"tambien",503.825,"right","yes","depends","espanol","spanish","Female",32,"right","college",NA,"cuba","estados unidos","estados unidos"
12,28,9,1,"Los ingenieros son europeos y el albanil son europeos tambien, entonces el estilo de construccion sera europeo.","pl-sg",0,0,"ungrammatical","SI, la frase suena bien",0,1246.73,399.825,679.895,399.76,791.87,344.59,1759.11,591.85,655.845,439.555,495.96,495.855,391.77,375.925,415.855,439.89,423.82,583.92,"tambien",495.96,"left","yes","depends","espanol","spanish","Female",32,"right","college",NA,"cuba","estados unidos","estados unidos"
12,28,10,2,"El ingeniero es europeo y el albanil tambien, entonces el estilo de construccion sera europeo.","sg",1,0,"grammatical","SI, la frase suena bien",1,1314.665,487.745,655.835,439.9,527.85,383.82,719.88,575.845,519.87,467.15,452.565,351.865,399.875,375.835,415.825,538.395,NA,NA,"tambien",519.87,"right","yes","depends","espanol","spanish","Female",32,"right","college",NA,"cuba","estados unidos","estados unidos"
13,2,1,1,"El profesor es severo y el decano es severo tambien, entonces no nos preocupamos.","sg",1,0,"grammatical","NO, la frase no suena bien",0,1702.495,463.905,743.71,447.49,896.025,463.595,407.77,648.385,406.64,527.88,648.29,1424.025,430.995,391.54,2175.975,NA,NA,NA,"tambien",648.29,"left","yes","depends","ingles","spanish","Male",36,"right","college",NA,"Espana","USA","USA"
13,2,2,2,"El profesor es severo y los decanos tambien, entonces no nos preocupamos.","sg-pl",0,1,"grammatical","NO, la frase no suena bien",0,718.845,175.895,184.195,191.37,183.7,191.27,199.835,175.49,200.725,175.835,215.075,256.315,663.94,NA,NA,NA,NA,NA,"tambien",200.725,"right","yes","depends","ingles","spanish","Male",36,"right","college",NA,"Espana","USA","USA"
13,2,3,2,"El profesor es severo y el decano tambien, entonces no nos preocupamos.","sg",1,0,"grammatical","SI, la frase suena bien",1,351.29,173.795,200.51,176.1,199.585,192.065,199.765,175.71,159.8,199.78,175.115,159.81,199.77,NA,NA,NA,NA,NA,"tambien",159.8,"right","yes","depends","ingles","spanish","Male",36,"right","college",NA,"Espana","USA","USA"
13,2,4,2,"Los profesores son severos y el decano tambien, entonces no nos preocupamos.","pl-sg",0,0,"grammatical","SI, la frase suena bien",1,327.495,199.72,152.25,215.885,119.68,183.75,191.99,159.645,199.665,159.365,192.115,159.99,183.09,NA,NA,NA,NA,NA,"tambien",199.665,"right","yes","depends","ingles","spanish","Male",36,"right","college",NA,"Espana","USA","USA"
13,2,5,2,"Los profesores son severos y los decanos tambien, entonces no nos preocupamos.","pl",1,1,"grammatical","NO, la frase no suena bien",0,271.15,136.415,175.03,176.3,183.365,152.05,359.69,151.81,215.525,199.265,200.025,216.06,431.195,NA,NA,NA,NA,NA,"tambien",215.525,"right","yes","depends","ingles","spanish","Male",36,"right","college",NA,"Espana","USA","USA"
13,2,7,1,"Los profesores son severos y los decanos son severos tambien, entonces no nos preocupamos.","pl",1,1,"grammatical","NO, la frase no suena bien",0,430.765,217.13,143.29,215.555,160.455,191.69,199.745,351.39,216.03,199.99,215.325,232.12,255.145,352.325,760.07,NA,NA,NA,"tambien",215.325,"right","yes","depends","ingles","spanish","Male",36,"right","college",NA,"Espana","USA","USA"
13,2,8,1,"Los profesores son severos y el decano son severos tambien, entonces no nos preocupamos.","pl-sg",0,0,"ungrammatical","NO, la frase no suena bien",1,406.465,431.79,423.245,376.135,407.74,2615.02,336.49,367.375,471.71,1159.915,471.565,391.525,312.305,350.835,488.715,NA,NA,NA,"tambien",471.565,"left","yes","depends","ingles","spanish","Male",36,"right","college",NA,"Espana","USA","USA"
13,2,10,1,"El profesor es severo y los decanos es severo tambien, entonces no nos preocupamos.","sg-pl",0,1,"ungrammatical","NO, la frase no suena bien",1,1086.315,376.02,295.555,287.43,319.995,312.17,272.625,270.325,320.29,311,328.43,487.745,487.685,407.785,1455.705,NA,NA,NA,"tambien",328.43,"right","yes","depends","ingles","spanish","Male",36,"right","college",NA,"Espana","USA","USA"
14,1,1,2,"Los duenos son honestos y los gerentes tambien, asi que compramos alli.","pl",1,1,"grammatical","NO, la frase no suena bien",0,1350.6,398.8,440.1,375.4,704,511.5,575.9,975.5,871.9,663.2,576.1,935.4,1407.9,NA,NA,NA,NA,NA,"tambien",871.9,"right","confused","depends","Espanol","mixed","Female",53,"right","some-college",NA,"Mexico","USA","USA"
14,1,2,2,"El dueno es honesto y el gerente tambien, asi que compramos alli.","sg",1,0,"grammatical","NO, la frase no suena bien",0,886.5,448,479.7,495.5,671.8,551.7,815.6,631.7,711.7,855.6,687.7,503.8,1263.7,NA,NA,NA,NA,NA,"tambien",711.7,"right","confused","depends","Espanol","mixed","Female",53,"right","some-college",NA,"Mexico","USA","USA"
14,1,3,2,"Los duenos son honestos y el gerente tambien, asi que compramos alli.","pl-sg",0,0,"grammatical","SI, la frase suena bien",1,583,543.9,607.3,624,599.6,703.9,671.5,1919.9,759.7,592,511.2,455.9,863.8,NA,NA,NA,NA,NA,"tambien",759.7,"right","confused","depends","Espanol","mixed","Female",53,"right","some-college",NA,"Mexico","USA","USA"
14,1,4,1,"El dueno es honesto y el gerente es honesto tambien, asi que compramos alli.","sg",1,0,"grammatical","NO, la frase no suena bien",0,799.1,583.7,567.9,847.5,839.6,503.7,567.6,583.7,687.9,895.7,1471.7,807.4,943.7,991.5,863.9,NA,NA,NA,"tambien",1471.7,"right","confused","depends","Espanol","mixed","Female",53,"right","some-college",NA,"Mexico","USA","USA"
14,1,5,1,"El dueno es honesto y los gerentes es honesto tambien, asi que compramos alli.","sg-pl",0,1,"ungrammatical","SI, la frase suena bien",0,1206.6,567.1,551.9,591.8,679.6,575.8,927.5,1095.7,1207.9,1743.5,559.4,383.8,399.9,535.8,463.8,NA,NA,NA,"tambien",559.4,"left","confused","depends","Espanol","mixed","Female",53,"right","some-college",NA,"Mexico","USA","USA"
14,1,7,1,"Los duenos son honestos y el gerente son honestos tambien, asi que compramos alli.","pl-sg",0,0,"ungrammatical","SI, la frase suena bien",0,631.1,415.8,455.6,631.6,511.6,511.7,559.9,815.7,1767.5,631.7,655.9,711.6,511.9,519.3,1440,NA,NA,NA,"tambien",655.9,"right","confused","depends","Espanol","mixed","Female",53,"right","some-college",NA,"Mexico","USA","USA"
14,1,9,2,"El dueno es honesto y los gerentes tambien, asi que compramos alli.","sg-pl",0,1,"grammatical","SI, la frase suena bien",1,1679.3,519.8,559.7,687.5,623.5,536.1,783.8,839.5,799.9,1279.7,1535.6,791.8,935.6,NA,NA,NA,NA,NA,"tambien",799.9,"left","confused","depends","Espanol","mixed","Female",53,"right","some-college",NA,"Mexico","USA","USA"
14,1,10,1,"Los duenos son honestos y los gerentes son honestos tambien, asi que compramos alli.","pl",1,1,"grammatical","SI, la frase suena bien",1,775.1,847.9,775.6,519.6,463.9,599.5,624,495.4,559.7,455.7,567.8,399.5,431.7,376,607.5,NA,NA,NA,"tambien",567.8,"right","confused","depends","Espanol","mixed","Female",53,"right","some-college",NA,"Mexico","USA","USA"
15,7,1,2,"El cuidador es carinoso y los pacientes tambien, por eso la relacion es buena.","sg-pl",0,1,"grammatical","SI, la frase suena bien",1,990.385,463.935,687.555,672.02,607.74,543.985,479.93,559.755,687.745,592.065,591.535,975.635,624.33,543.79,1167.9,NA,NA,NA,"tambien",687.745,"right","yes","spanish","espanol","spanish","Male",35,"right","some-college","El experimiento me parecio muy claro rapido y facil. muchas gracias.","republica dominicana","republica dominicana","republica dominicana"
15,7,3,2,"El cuidador es carinoso y el paciente tambien, por eso la relacion es buena.","sg",1,0,"grammatical","SI, la frase suena bien",1,462.88,463.935,655.98,575.55,671.705,991.77,639.86,575.69,735.945,527.77,495.85,399.59,607.99,399.71,1679.855,NA,NA,NA,"tambien",735.945,"right","yes","spanish","espanol","spanish","Male",35,"right","some-college","El experimiento me parecio muy claro rapido y facil. muchas gracias.","republica dominicana","republica dominicana","republica dominicana"
15,7,4,1,"El cuidador es carinoso y el paciente es carinoso tambien, por eso la relacion es buena.","sg",1,0,"grammatical","SI, la frase suena bien",1,511.43,671.71,736.05,591.835,687.755,591.855,671.78,975.79,832.13,655.12,864.325,623.8,527.755,447.735,479.83,415.585,847.92,NA,"tambien",864.325,"right","yes","spanish","espanol","spanish","Male",35,"right","some-college","El experimiento me parecio muy claro rapido y facil. muchas gracias.","republica dominicana","republica dominicana","republica dominicana"
15,7,6,1,"El cuidador es carinoso y los pacientes es carinoso tambien, por eso la relacion es buena.","sg-pl",0,1,"ungrammatical","NO, la frase no suena bien",1,2128.06,704.23,623.465,527.835,815.87,623.705,607.935,687.82,1072.2,543,527.98,511.795,367.845,303.95,287.49,352.26,1631.485,NA,"tambien",527.98,"right","yes","spanish","espanol","spanish","Male",35,"right","some-college","El experimiento me parecio muy claro rapido y facil. muchas gracias.","republica dominicana","republica dominicana","republica dominicana"
15,7,7,1,"Los cuidadores son carinosos y el paciente son carinosos tambien, por eso la relacion es buena.","pl-sg",0,0,"ungrammatical","NO, la frase no suena bien",1,2782.885,703.905,607.84,671.54,1103.84,640.13,543.75,672.16,927.565,1311.79,527.875,511.27,351.71,336.215,463.61,399.955,975.78,NA,"tambien",527.875,"right","yes","spanish","espanol","spanish","Male",35,"right","some-college","El experimiento me parecio muy claro rapido y facil. muchas gracias.","republica dominicana","republica dominicana","republica dominicana"
15,7,8,2,"Los cuidadores son carinosos y el paciente tambien, por eso la relacion es buena.","pl-sg",0,0,"grammatical","SI, la frase suena bien",1,958.995,623.79,879.875,719.54,688.15,495.74,592.22,991.44,431.83,479.875,335.49,319.685,368.08,351.675,303.995,NA,NA,NA,"tambien",431.83,"left","yes","spanish","espanol","spanish","Male",35,"right","some-college","El experimiento me parecio muy claro rapido y facil. muchas gracias.","republica dominicana","republica dominicana","republica dominicana"
15,7,9,1,"Los cuidadores son carinosos y los pacientes son carinosos tambien, por eso la relacion es buena.","pl",1,1,"grammatical","SI, la frase suena bien",1,2254.29,479.49,543.445,496.045,752.025,415.805,591.71,415.73,431.935,463.96,383.735,415.465,336.245,351.555,399.765,351.915,544.92,NA,"tambien",383.735,"left","yes","spanish","espanol","spanish","Male",35,"right","some-college","El experimiento me parecio muy claro rapido y facil. muchas gracias.","republica dominicana","republica dominicana","republica dominicana"
15,7,10,2,"Los cuidadores son carinosos y los pacientes tambien, por eso la relacion es buena.","pl",1,1,"grammatical","SI, la frase suena bien",1,991.685,543.435,543.93,479.735,575.755,431.96,543.785,591.85,639.685,431.565,368.005,352.05,463.915,351.45,335.775,NA,NA,NA,"tambien",639.685,"left","yes","spanish","espanol","spanish","Male",35,"right","some-college","El experimiento me parecio muy claro rapido y facil. muchas gracias.","republica dominicana","republica dominicana","republica dominicana"
16,5,3,2,"El escalador es aventurero y los motociclistas tambien, entonces las sugerencias fueron  entretenidas.","sg-pl",0,1,"grammatical","SI, la frase suena bien",1,1450.999,506.005,1088,469,528.999,1194,645.994,1632.005,619.999,617,437,1430.999,635,2375,NA,NA,NA,NA,"tambien",619.999,"left","yes","both","Ingles y Espanol","mixed","Female",51,"right","some-college","Fue una tarea muy interesante y disfrute participar en la encuesta.","Estados Unidos","Estados Unidos de America","Estados Unidos"
16,5,4,1,"Los escaladores son aventureros y el motociclista son aventureros tambien, entonces las sugerencias fueron entretenidas.","pl-sg",0,0,"ungrammatical","NO, la frase no suena bien",1,1365.999,424.994,814.005,1002,1577,454.999,616,1150.999,328,4140.994,441.005,714.999,769,744.995,836.005,1469,NA,NA,"tambien",441.005,"right","yes","both","Ingles y Espanol","mixed","Female",51,"right","some-college","Fue una tarea muy interesante y disfrute participar en la encuesta.","Estados Unidos","Estados Unidos de America","Estados Unidos"
16,5,5,1,"El escalador es aventurero y los motociclistas es aventurero tambien, entonces las sugerencias fueron entretenidas.","sg-pl",0,1,"ungrammatical","NO, la frase no suena bien",1,1723,492.994,1130.005,797,743,647.995,797.005,814.999,359,1846,608.999,576.995,827.004,733,456,779.994,NA,NA,"tambien",608.999,"right","yes","both","Ingles y Espanol","mixed","Female",51,"right","some-college","Fue una tarea muy interesante y disfrute participar en la encuesta.","Estados Unidos","Estados Unidos de America","Estados Unidos"
16,5,6,1,"El escalador es aventurero y el motociclista es aventurero tambien, entonces las sugerencias fueron entretenidas.","sg",1,0,"grammatical","SI, la frase suena bien",1,2096,474.995,767.004,510,818.999,705,523,538.999,573,506.994,872.005,521.994,575.005,716.994,501.005,2141,NA,NA,"tambien",872.005,"right","yes","both","Ingles y Espanol","mixed","Female",51,"right","some-college","Fue una tarea muy interesante y disfrute participar en la encuesta.","Estados Unidos","Estados Unidos de America","Estados Unidos"
16,5,7,2,"Los escaladores son aventureros y los motociclistas tambien, entonces las sugerencias fueron entretenidas.","pl-sg",1,1,"grammatical","SI, la frase suena bien",1,1335.994,491.999,811,1502,705.999,559,519,772.999,833.005,545.994,675.005,866.994,960.005,563,NA,NA,NA,NA,"tambien",833.005,"left","yes","both","Ingles y Espanol","mixed","Female",51,"right","some-college","Fue una tarea muy interesante y disfrute participar en la encuesta.","Estados Unidos","Estados Unidos de America","Estados Unidos"
16,5,8,2,"El escalador es aventurero y el motociclista tambien, entonces las sugerencias fueron entretenidas.","sg",1,0,"grammatical","SI, la frase suena bien",1,1251.999,422,804,461,796,824,741.994,719.005,937,1421,905,892.994,688.004,820,NA,NA,NA,NA,"tambien",937,"right","yes","both","Ingles y Espanol","mixed","Female",51,"right","some-college","Fue una tarea muy interesante y disfrute participar en la encuesta.","Estados Unidos","Estados Unidos de America","Estados Unidos"
16,5,9,1,"Los escaladores son aventureros y los motociclistas son aventureros tambien, entonces las sugerencias fueron entretenidas.","pl",1,1,"grammatical","SI, la frase suena bien",1,1952.005,938.994,495.005,860.994,446.005,653.999,452.995,535.004,1043,482.994,746,646.005,504.994,464.004,556,760.994,NA,NA,"tambien",746,"left","yes","both","Ingles y Espanol","mixed","Female",51,"right","some-college","Fue una tarea muy interesante y disfrute participar en la encuesta.","Estados Unidos","Estados Unidos de America","Estados Unidos"
16,5,10,2,"Los escaladores son aventureros y el motociclista tambien, entonces las sugerencias fueron entretenidas.","pl-sg",0,0,"grammatical","SI, la frase suena bien",1,1227,689,719,533,375,1097,554.994,335.004,736,527,428.994,528.004,503,619,NA,NA,NA,NA,"tambien",736,"left","yes","both","Ingles y Espanol","mixed","Female",51,"right","some-college","Fue una tarea muy interesante y disfrute participar en la encuesta.","Estados Unidos","Estados Unidos de America","Estados Unidos"
17,35,1,1,"El cajero es aleman y el farmaceutico es aleman tambien, entonces la comunidad alemana compra medicamentos alli.","sg",1,0,"grammatical","SI, la frase suena bien",1,815.004,492,616.994,484,531,476,478,846.994,528.005,481,576,456,511,538,509,523,606,1005.995,"tambien",576,"left","yes","depends","Espanol","spanish","Male",34,"right","some-grad","En tus oraciones de practica hay varias que estan mal dichas y no se usarian ni aprendiendo a hablar espanol y que ustedes indican que son validas. Esto llevaria a responder mal preguntas bien y viceversa; dada la tendencia del ser humano de dejarse llevar por lo que indica la mayoria, asi sea un error garrafal.","Colombia","Colombia","Colombia"
17,35,2,1,"Los cajeros son alemanes y los farmaceuticos son alemanes tambien, entonces la comunidad alemana compra medicamentos alli.","pl",1,1,"grammatical","SI, la frase suena bien",1,854.005,437,536.005,523,487,430,426,459.999,454.005,442.994,554,448,423,437.999,398,545.999,569.004,591,"tambien",554,"left","yes","depends","Espanol","spanish","Male",34,"right","some-grad","En tus oraciones de practica hay varias que estan mal dichas y no se usarian ni aprendiendo a hablar espanol y que ustedes indican que son validas. Esto llevaria a responder mal preguntas bien y viceversa; dada la tendencia del ser humano de dejarse llevar por lo que indica la mayoria, asi sea un error garrafal.","Colombia","Colombia","Colombia"
17,35,3,2,"El cajero es aleman y los farmaceuticos tambien, entonces la comunidad alemana compra medicamentos alli","sg-pl",0,1,"grammatical","SI, la frase suena bien",1,622.004,406.994,514.004,475.994,431.994,377,398.994,385,423.004,490,463,443.994,374.005,422.005,430.994,464,NA,NA,"tambien",423.004,"left","yes","depends","Espanol","spanish","Male",34,"right","some-grad","En tus oraciones de practica hay varias que estan mal dichas y no se usarian ni aprendiendo a hablar espanol y que ustedes indican que son validas. Esto llevaria a responder mal preguntas bien y viceversa; dada la tendencia del ser humano de dejarse llevar por lo que indica la mayoria, asi sea un error garrafal.","Colombia","Colombia","Colombia"
17,35,4,2,"Los cajeros son alemanes y el farmaceutico tambien, entonces la comunidad alemana compra medicamentos alli.","pl-sg",0,0,"grammatical","NO, la frase no suena bien",0,685,383.004,482,418.005,459.999,477.999,513.999,521,697,544.999,520,405,445.999,437.999,501,509.999,NA,NA,"tambien",697,"left","yes","depends","Espanol","spanish","Male",34,"right","some-grad","En tus oraciones de practica hay varias que estan mal dichas y no se usarian ni aprendiendo a hablar espanol y que ustedes indican que son validas. Esto llevaria a responder mal preguntas bien y viceversa; dada la tendencia del ser humano de dejarse llevar por lo que indica la mayoria, asi sea un error garrafal.","Colombia","Colombia","Colombia"
17,35,5,2,"El cajero es aleman y el farmaceutico tambien, entonces la comunidad alemana compra medicamentos alli.","sg",1,0,"grammatical","NO, la frase no suena bien",0,738.994,453.994,413.005,367.995,320,423.004,400.005,419.999,465,475.994,451,456.999,485,375.995,495,388.999,NA,NA,"tambien",465,"left","yes","depends","Espanol","spanish","Male",34,"right","some-grad","En tus oraciones de practica hay varias que estan mal dichas y no se usarian ni aprendiendo a hablar espanol y que ustedes indican que son validas. Esto llevaria a responder mal preguntas bien y viceversa; dada la tendencia del ser humano de dejarse llevar por lo que indica la mayoria, asi sea un error garrafal.","Colombia","Colombia","Colombia"
17,35,6,1,"El cajero es aleman y los farmaceuticos es aleman tambien, entonces la comunidad alemana compra medicamentos alli.","sg-pl",0,1,"ungrammatical","SI, la frase suena bien",0,683,370,398.994,482.999,383,408.005,334.999,353.994,358.005,430.994,621,486,511.994,459,490.999,670.994,525.005,485.999,"tambien",621,"right","yes","depends","Espanol","spanish","Male",34,"right","some-grad","En tus oraciones de practica hay varias que estan mal dichas y no se usarian ni aprendiendo a hablar espanol y que ustedes indican que son validas. Esto llevaria a responder mal preguntas bien y viceversa; dada la tendencia del ser humano de dejarse llevar por lo que indica la mayoria, asi sea un error garrafal.","Colombia","Colombia","Colombia"
17,35,8,2,"Los cajeros son alemanes y los farmaceuticos tambien, entonces la comunidad alemana compra medicamentos alli.","pl",1,1,"grammatical","SI, la frase suena bien",1,565.004,360.999,521,452.999,395,369,428,393,446,423,551,522,462.994,366,340,320,NA,NA,"tambien",446,"left","yes","depends","Espanol","spanish","Male",34,"right","some-grad","En tus oraciones de practica hay varias que estan mal dichas y no se usarian ni aprendiendo a hablar espanol y que ustedes indican que son validas. Esto llevaria a responder mal preguntas bien y viceversa; dada la tendencia del ser humano de dejarse llevar por lo que indica la mayoria, asi sea un error garrafal.","Colombia","Colombia","Colombia"
17,35,10,1,"Los cajeros son alemanes y el farmaceutico son alemanes tambien, entonces la comunidad alemana compra medicamentos alli.","pl-sg",0,0,"ungrammatical","NO, la frase no suena bien",1,580,614.005,376.994,369.004,365,381.994,533,443.999,490,495.999,676,472.994,286,264,313.994,330,369.994,383.999,"tambien",676,"left","yes","depends","Espanol","spanish","Male",34,"right","some-grad","En tus oraciones de practica hay varias que estan mal dichas y no se usarian ni aprendiendo a hablar espanol y que ustedes indican que son validas. Esto llevaria a responder mal preguntas bien y viceversa; dada la tendencia del ser humano de dejarse llevar por lo que indica la mayoria, asi sea un error garrafal.","Colombia","Colombia","Colombia"
